Folder: Calculate-Module/Calculate-Module/ConsoleApp1/ConsoleApp1/bin

Note: Calculate-Module/ConsoleApp1/ConsoleApp1/bin/Si.txt
eV,e1,e2
6	-7.8701	6.5769
5.98	-7.9152	6.6551
5.96	-7.964	6.7356
5.94	-8.016	6.8186
5.92	-8.0709	6.9042
5.9	-8.1283	6.9926
5.88	-8.188	7.084
5.86	-8.2497	7.1783
5.84	-8.3132	7.2758
5.82	-8.3785	7.3763
5.8	-8.4454	7.4801
5.78	-8.5139	7.5872
5.76	-8.584	7.6977
5.74	-8.6558	7.8119
5.72	-8.7292	7.9302
5.7	-8.8045	8.0529
5.68	-8.8815	8.1807
5.66	-8.9602	8.3143
5.64	-9.0401	8.4546
5.62	-9.1208	8.6027
5.6	-9.2012	8.7597
5.58	-9.2797	8.9266
5.56	-9.3546	9.104
5.54	-9.4232	9.2923
5.52	-9.4829	9.4909
5.5	-9.5308	9.6987
5.48	-9.5639	9.9135
5.46	-9.5802	10.132
5.44	-9.5779	10.35
5.42	-9.5568	10.563
5.4	-9.5179	10.766
5.38	-9.4635	10.955
5.36	-9.3973	11.124
5.34	-9.324	11.273
5.32	-9.2491	11.398
5.3	-9.1783	11.499
5.28	-9.1169	11.578
5.26	-9.07	11.638
5.24	-9.0414	11.681
5.22	-9.0342	11.711
5.2	-9.0502	11.734
5.18	-9.0903	11.753
5.16	-9.1544	11.771
5.14	-9.2421	11.793
5.12	-9.3523	11.821
5.1	-9.484	11.858
5.08	-9.6358	11.905
5.06	-9.8066	11.965
5.04	-9.9955	12.038
5.02	-10.202	12.126
5	-10.424	12.229
4.98	-10.663	12.349
4.96	-10.918	12.487
4.94	-11.189	12.644
4.92	-11.475	12.822
4.9	-11.777	13.021
4.88	-12.094	13.245
4.86	-12.426	13.495
4.84	-12.773	13.772
4.82	-13.134	14.08
4.8	-13.51	14.421
4.78	-13.9	14.798
4.76	-14.303	15.213
4.74	-14.718	15.67
4.72	-15.145	16.174
4.7	-15.582	16.727
4.68	-16.03	17.335
4.66	-16.485	18.003
4.64	-16.948	18.738
4.62	-17.416	19.549
4.6	-17.884	20.446
4.58	-18.349	21.44
4.56	-18.799	22.549
4.54	-19.221	23.787
4.52	-19.592	25.172
4.5	-19.883	26.718
4.48	-20.052	28.436
4.46	-20.051	30.322
4.44	-19.825	32.361
4.42	-19.317	34.516
4.4	-18.479	36.73
4.38	-17.279	38.927
4.36	-15.709	41.017
4.34	-13.793	42.912
4.32	-11.575	44.535
4.3	-9.1194	45.823
4.28	-6.4986	46.729
4.26	-3.8007	47.218
4.24	-1.1281	47.282
4.22	1.4142	46.948
4.2	3.7382	46.277
4.18	5.7854	45.355
4.16	7.5308	44.271
4.14	8.9786	43.112
4.12	10.156	41.948
4.1	11.102	40.83
4.08	11.864	39.792
4.06	12.486	38.849
4.04	13.007	38.006
4.02	13.459	37.256
4	13.865	36.59
3.98	14.242	35.997
3.96	14.6	35.465
3.94	14.946	34.985
3.92	15.285	34.549
3.9	15.619	34.152
3.88	15.951	33.789
3.86	16.281	33.457
3.84	16.613	33.154
3.82	16.946	32.877
3.8	17.283	32.625
3.78	17.625	32.396
3.76	17.972	32.189
3.74	18.326	32.004
3.72	18.687	31.841
3.7	19.056	31.701
3.68	19.432	31.586
3.66	19.818	31.503
3.64	20.215	31.455
3.62	20.63	31.452
3.6	21.07	31.506
3.58	21.551	31.627
3.56	22.093	31.829
3.54	22.73	32.125
3.52	23.509	32.518
3.5	24.489	33.003
3.48	25.748	33.551
3.46	27.371	34.102
3.44	29.457	34.55
3.42	32.098	34.707
3.4	35.318	34.257
3.38	38.922	32.779
3.36	42.356	29.955
3.34	44.85	25.918
3.32	45.874	21.335
3.3	45.483	17.025
3.28	44.169	13.481
3.26	42.452	10.767
3.24	40.652	8.7309
3.22	38.911	7.1999
3.2	37.287	6.044
3.18	35.804	5.1674
3.16	34.468	4.4947
3.14	33.272	3.9668
3.12	32.202	3.5389
3.1	31.239	3.1794
3.08	30.365	2.868
3.06	29.563	2.5919
3.04	28.82	2.3442
3.02	28.127	2.1208
3	27.475	1.9193
2.98	26.86	1.7383
2.96	26.277	1.5764
2.94	25.725	1.4325
2.92	25.2	1.3051
2.9	24.702	1.1931
2.88	24.229	

Note: Calculate-Module/ConsoleApp1/ConsoleApp1/bin/SiN.txt
nm,n,k
210.19	2.461007	0.3073625
210.75	2.459128	0.2977371
210.89	2.462114	0.2983381
211.32	2.460689	0.2914184
211.88	2.46157	0.2847348
212.44	2.461563	0.2775761
212.49	2.460672	0.2764344
213.01	2.460484	0.2698784
213.57	2.458439	0.2616015
214.08	2.45459	0.2529976
214.14	2.455461	0.2529775
214.7	2.451822	0.2442335
215.26	2.447611	0.2354644
215.68	2.450802	0.233191
215.83	2.44632	0.2288548
216.39	2.44653	0.2234268
216.96	2.445523	0.2172389
217.27	2.439556	0.2107038
217.52	2.442923	0.2102592
218.09	2.438754	0.2026947
218.65	2.433661	0.1949317
218.87	2.436103	0.1943627
219.21	2.428134	0.1871342
219.78	2.428651	0.1828546
220.34	2.427619	0.1778374
220.46	2.424633	0.1754155
220.91	2.424419	0.1718846
221.47	2.419418	0.165241
222.04	2.413333	0.1583712
222.06	2.413642	0.1583743
222.6	2.409572	0.1527085
223.17	2.409518	0.1488982
223.65	2.406966	0.1445952
223.73	2.407009	0.1440859
224.3	2.40187	0.1383895
224.86	2.395366	0.1323618
225.24	2.396388	0.130488
225.43	2.391114	0.1273317
225.99	2.390997	0.1240724
226.56	2.387906	0.119769
226.84	2.382508	0.1162856
227.12	2.382127	0.1146482
227.69	2.375067	0.1092977
228.25	2.373862	0.1060651
228.43	2.370185	0.1039781
228.82	2.372364	0.1028134
229.38	2.367366	0.09857776
229.95	2.360479	0.0938836
230.02	2.361339	0.0938169
230.52	2.357109	0.09042607
231.08	2.356348	0.08782704
231.62	2.351638	0.08428898
231.65	2.351814	0.08421177
232.21	2.344928	0.08008486
232.78	2.341528	0.07705373
233.21	2.34132	0.07543653
233.34	2.340637	0.07478621
233.91	2.335781	0.07153669
234.48	2.328602	0.06787627
234.8	2.330634	0.06728782
235.04	2.326953	0.06564015
235.61	2.325233	0.06343302
236.17	2.319411	0.06040399
236.39	2.319871	0.05985335
236.74	2.312209	0.05718187
237.31	2.313034	0.05578842
237.87	2.309388	0.05348823
237.98	2.309185	0.05315456
238.44	2.302573	0.05065644
239.01	2.300374	0.04880583
239.57	2.298884	0.04713073
239.58	2.298906	0.04711005
240.14	2.293008	0.0447498
240.71	2.287759	0.0425525
241.17	2.288556	0.04169377
241.27	2.287867	0.04135586
241.84	2.283084	0.03938091
242.41	2.275924	0.03711299
242.76	2.278273	0.03680101
242.97	2.276948	0.03619498
243.54	2.273018	0.03455661
244.11	2.266144	0.03255716
244.35	2.267961	0.03238499
244.67	2.266511	0.03163401
245.24	2.263229	0.03024054
245.81	2.256412	0.02847347
245.94	2.25754	0.028402
246.38	2.256598	0.02763078
246.94	2.253432	0.02640261
247.51	2.246782	0.02482822
247.53	2.246905	0.0248201
248.08	2.247294	0.0241232
248.65	2.243866	0.02299752
249.12	2.239289	0.0219208
249.21	2.237245	0.0215871
249.78	2.238504	0.02104436
250.35	2.234377	0.01998188
250.71	2.233223	0.01947066
250.92	2.229261	0.01887393
251.48	2.229905	0.01832995
252.05	2.224978	0.01731256
252.3	2.225743	0.01712819
252.62	2.222256	0.01652049
253.19	2.221386	0.01591975
253.76	2.215494	0.01495415
253.89	2.216462	0.01490025
254.32	2.215326	0.01444811
254.89	2.212535	0.01377047
255.46	2.206795	0.01291696
255.48	2.206383	0.01287034
256.03	2.208038	0.01258
256.6	2.203385	0.01186335
257.07	2.202694	0.01149616
257.16	2.201402	0.

Note: Calculate-Module/ConsoleApp1/ConsoleApp1/bin/SIO2.txt
ANGSTROMS, n, k
2066    1.543   0
2267    1.52276 0
2483    1.50841 0
2652    1.50004 0
2803    1.49404 0
3022    1.48719 0
3303    1.48053 0
3611    1.47512 0
4047    1.46961 0
4358    1.46669 0
4678    1.46429 0
5086    1.46187 0
5461    1.46008 0
5770    1.45885 0
5893    1.45841 0
6438    1.45671 0
6678    1.45608 0
7065    1.45515 0
8521    1.45248 0
8944    1.45185 0
10140   1.45025 0
11286	1.44888	0
13622	1.44621	0
14695	1.44497	0
16606	1.44267	0
17091	1.44205	0
20581	1.43722	0

Note: Calculate-Module/ConsoleApp1/ConsoleApp1/bin/SIO2_nm.txt
wavelength	n	k
206.60000000000002	1.543	0
226.70000000000002	1.52276	0
248.3	1.50841	0
265.2	1.50004	0
280.3	1.49404	0
302.2	1.48719	0
330.3	1.48053	0
361.1	1.47512	0
404.70000000000005	1.46961	0
435.8	1.46669	0
467.8	1.46429	0
508.6	1.46187	0
546.1	1.46008	0
577	1.45885	0
589.3000000000001	1.45841	0
643.8000000000001	1.45671	0
667.8000000000001	1.45608	0
706.5	1.45515	0
852.1	1.45248	0
894.4000000000001	1.45185	0
1014	1.45025	0
1128.6000000000001	1.44888	0
1362.2	1.44621	0
1469.5	1.44497	0
1660.6000000000001	1.44267	0
1709.1000000000001	1.44205	0
2058.1	1.43722	0

Note: README.md
# Calculate-Module
 두께 측정 및 분석을 위한 알고리즘 설계 및 개발 프로젝트입니다. 
효율적인 계산 알고리즘 개발을 위해 다음 요소를 고려합니다. 
 - 병렬 처리
 - 서버 통신
 - 수치 해석
 - 코드 최적화

File: SiO2 1000nm_on_Si.dat
wavelength(nm)	AOI	Psi	Delta
210.487	65	40.2533	211.131
213.669	65	49.2015	159.709
216.851	65	41.1927	106.168
220.032	65	35.61935	138.15
223.213	65	35.7394	195.104
226.394	65	43.18605	214.989
229.575	65	50.2365	142.875
232.756	65	41.1162	103.951
235.937	65	35.4893	125.982
239.117	65	33.401	173.788
242.298	65	37.6213	214.581
245.478	65	46.1603	214.197
248.659	65	51.101	136.082
251.839	65	42.8234	101.9274
255.019	65	38.15366	115.891
258.199	65	35.8627	152.659
261.379	65	36.7048	194.622
264.559	65	40.4955	222.08
267.739	65	46.5914	215.719
270.919	65	50.7151	153.232
274.098	65	44.6481	108.746
277.278	65	40.3493	109.444
280.458	65	37.4369	132.176
283.637	65	35.7214	166.146
286.817	65	36.2031	201.54
289.996	65	38.682	226.6568
293.175	65	43.30418	232.68
296.355	65	51.2036	209.425
299.534	65	53.2489	144.393
302.713	65	44.6888	109.717
305.893	65	38.878	107.32
309.072	65	34.8689	119.702
312.251	65	31.7715	141.5831
315.43	65	30.1203	169.362
318.609	65	30.6386	197.954
321.788	65	32.9793	220.918
324.967	65	36.7161	235.207
328.146	65	42.1637	237.747
331.325	65	49.952	223.983
334.504	65	57.8259	177.464
337.682	65	51.3561	124.896
340.861	65	43.5757	108.083
344.04	65	38.7195	106.33
347.219	65	35.2162	113.732
350.397	65	32.6984	127.087
353.576	65	30.7036	147.174
356.754	65	29.8856	168.561
359.933	65	30.4397	191.6795
363.111	65	32.1666	212.953
366.29	65	34.5856	228.76
369.468	65	37.45	239.459
372.647	65	41.1769	242.5
375.825	65	46.5109	237.043
379.003	65	53.9408	217.789
382.181	65	59.3233	173.175
385.359	65	53.5094	131.047
388.538	65	45.9335	113.239
391.716	65	40.313	108.137
394.894	65	36.2136	109.873
398.071	65	32.7954	115.914
401.249	65	29.8594	125.943
404.4271	65	27.41	138.601
407.605	65	25.5769	154.414
410.782	65	24.4625	171.72
413.96	65	24.2607	189.412
417.1375	65	25.0955	206.551
420.315	65	26.4692	220.846
423.492	65	28.4956	232.897
426.669	65	30.8329	242.039
429.847	65	33.5794	248.526
433.024	65	36.2396	250.5278
436.201	65	40.9405	250.223
439.377	65	46.9525	248.033
442.554	65	54.9281	237.894
445.731	65	64.5386	213.235
448.907	65	67.559	160.0378
452.084	65	58.7715	122.995
455.26	65	49.7528	109.324
458.436	65	43.1888	103.9978
461.612	65	38.5211	102.525
464.788	65	34.8046	104.122
467.964	65	31.7061	107.818
471.14	65	29.1332	113.144
474.315	65	26.85693	120.095
477.491	65	24.9415	128.074
480.666	65	23.0733	138.42
483.841	65	21.7524	149.998
487.016	65	20.8045	162.216
490.19	65	20.1974	175.648
493.365	65	20.2834	188.768
496.539	65	20.7524	201.436
499.714	65	21.5908	212.958
502.888	65	22.95463	223.251
506.062	65	24.33168	231.816
509.235	65	26.1733	239.754
512.409	65	28.051	245.818
515.582	65	30.0828	250.3428
518.755	65	32.25864	252.946
521.928	65	35.2482	256.0892
525.1	65	38.2124	256.858
528.273	65	41.9128	256.398
531.445	65	47.064	253.982
534.617	65	53.1578	248.964
537.789	65	60.8196	240.153
540.96	65	69.4945	220.556
544.131	65	74.8245	171.0872
547.302	65	68.44059	130.058
550.473	65	59.8508	112.752
553.644	65	52.5353	105.188
556.814	65	46.806	100.978
559.984	65	42.092	99.2807
563.154	65	38.4006	98.7919
566.323	65	35.6033	99.4246
569.492	65	33.1753	100.94
572.661	65	31.01667	103.0941
575.83	65	29.14987	106.3435
578.998	65	27.47493	109.642
582.166	65	25.65604	114.286
585.333	65	24.249	119.336
588.501	65	22.9649	124.992
591.668	65	21.6112	131.035
594.834	65	20.5932	138.228
598.001	65	19.6863	146.024
601.167	65	18.8063	153.452
604.333	65	18.2768	162.204
607.498	65	17.9785	170.927
610.663	65	17.85433	180.623
613.828	65	18.0369	189.375
616.992	65	18.3126	197.76
620.156	65	18.8015	206.071
623.319	65	19.3689	214.123
626.483	65	20.262	220.721
629.645	65	21.124	227.131
632.808	65	22.1089	232.636
635.97	65	23.2633	237.817
639.132	65	24.3893	241.856
642.293	65	25.5506	245.847
645.454	65	27.0217	249.695
648.614	65	28.3357	252.382
651.774	65	29.7962	254.761
654.934	65	31.4215	256.89
658.093	65	33.1967	258.6153
661.252	65	35.3064	259.972
664.411	65	37.2961	260.472
667.569	65	39.7701	260.386
670.726	65	42.3985	259.994
673.883	65	45.5877	259.226
677.04	65	49.3112	258.007
680.196	65	54.1959	254.867
683.352	65	59.1087	251.028
686.508	65	65.0443	245.111
689.663	65	71.219	233.578
692.817	65	76.7783	209.605
695.971	65	78.7939	168.124
699.125	65	74.5061	133.843
702.278	65	68.7156	116.42
705.43	65	62.3589	108.2815
708.582	65	57.6262	103.2142
711.734	65	53.2669	100.156
714.885	65	48.8452	97.8513
718.036	65	45.8788	96.8564
721.186	65	42.9244	96.0236
724.336	65	40.3829	95.5636
727.485	65	38.5771	95.6347
730.634	65	36.08633	96.3049
733.782	65	34.6886	97.1936
736.93	65	33.1643	98.1922
740.077	65	31.6868	98.9234
743.224	65	30.4423	100.699
746.37	65	29.2266	102.421
749.516	65	28.0587	104.3455
752.661	65	26.8899	106.1221
755.806	65	25.7822	108.656
758.95	65	24.8456	111.322
762.094	65	23.96851	114.145
765.237	65	23.1149	116.773
768.38	65	22.4106	119.578
771.522	65	21.6134	123.946
774.664	65	20.6941	126.609
777.805	65	19.8525	130.687
780.946	65	19.4476	135.168
784.086	65	18.7403	139.982
787.225	65	17.997	143.669
790.364	65	17.8012	148.679
793.503	65	17.3242	153.732
796.641	65	17.0359	158.341
799.779	65	16.7003	164.423
802.916	65	16.249	169.295
806.0521	65	16.2777	174.0537
809.188	65	16.0554	180.4659
812.324	65	16.5284	184.493
815.458	65	16.5259	191.004
818.593	65	16.5675	195.003
821.727	65	16.7438	202.836
824.86	65	17.2789	204.912
827.993	65	17.5181	208.794
831.125	65	17.8173	213.297
834.257	65	18.2971	216.9649
837.389	65	18.81381	221.599
840.52	65	19.2906	225.102
843.65	65	19.6671	228.489
846.78	65	20.7783	231.988
849.909	65	21.2444	234.0143
853.038	65	22.0856	238.559
856.166	65	22.5361	240.619
859.294	65	23.1282	241.774
862.422	65	23.8088	245.265
865.549	65	24.572	246.4547
868.675	65	25.187	250.363
871.801	65	25.99317	251.41
874.926	65	26.5828	252.357
878.051	65	27.3927	253.215
881.176	65	28.37888	256.954
884.3	65	28.5059	256.023
887.424	65	29.8325	257.986
890.547	65	30.475	259.128
893.67	65	31.4569	259.722
896.792	65	32.5231	260.409
899.914	65	33.1368	260.307
903.035	65	35.2318	263.424
906.156	65	35.4854	262.251
909.277	65	36.4294	261.939
912.397	65	38.3689	263.077
915.517	65	39.76685	262.988
918.636	65	41.3944	263.287
921.755	65	42.9588	262.885
924.873	65	43.9535	262.941
927.992	65	45.4275	260.839
931.109	65	48.0047	260.951
934.227	65	50.8701	260.9592
937.344	65	53.4568	259.561
940.461	65	56.7044	258.196
943.577	65	58.0604	255.051
946.693	65	61.036	254.444
949.809	65	64.1986	253.243
952.925	65	67.2548	247.406
956.04	65	70.2016	243.408
959.155	65	73.7196	234.59
962.269	65	76.6293	223.529
965.383	65	79.2255	205.744
968.497	65	80.8993	181.155
971.611	65	78.7982	144.953
974.725	65	76.1669	124.761
977.838	65	73.5917	118.829
980.951	65	71.773	112.883
984.064	65	68.3152	111.899
987.177	65	64.4691	106.249
988.733	65	62.4608	102.767