Folder: Calculate-Module/Calculate-Module/ConsoleApp1/ConsoleApp1

Note: Calculate-Module/ConsoleApp1/ConsoleApp1/Si_new.txt
wavelength	n	k
350.397168	5.57513595809459	2.8828687020229657
351.986475	5.62990747273482	2.882366186651053
353.575781	5.694270252239391	2.8819010080375875
355.165088	5.769821276647391	2.879728222791452
356.75437	5.857931771137707	2.8734739789669668
358.343628	5.9597248014310225	2.86018872775079
359.932886	6.075603011498006	2.8347300681113192
361.522144	6.205450940622356	2.7931564575190575
363.111377	6.348140225328402	2.729358269675107
364.70061	6.500271714147439	2.635199667066044
366.289819	6.648084361070419	2.503731695734338
367.879028	6.782200541865603	2.333400233152137
369.468213	6.887214646947158	2.126114160735555
371.057397	6.947453880264014	1.8949579887354862
372.646582	6.959580821592755	1.6605856865531112
374.235718	6.925764376910809	1.4350283089333042
375.824878	6.854159280509374	1.2334685062906443
377.414014	6.7633391915175505	1.06265022922684
379.003125	6.659655249303078	0.9203574253158227
380.592236	6.5520977536148255	0.804457806781368
382.181323	6.447143080271259	0.7085441341010342
383.77041	6.345498966158756	0.6295035217032113
385.359473	6.248459216889472	0.5643602905700192
386.948535	6.156832715174606	0.5097287896845156
388.537573	6.070587079382995	0.4642380134884966
390.126587	5.989789635359343	0.4264065272888518
391.715601	5.914447869039654	0.3941765834684176
393.30459	5.844209773863092	0.3668396512590785
394.893579	5.778823861325393	0.34339209587091724
396.482544	5.7178194888021086	0.32254837792209873
398.071484	5.6608312308097855	0.30412349495009067
399.660425	5.607384380676279	0.2874114777523582
401.249341	5.557050937311866	0.27204885090737235
402.838232	5.50951813970247	0.2578435061871947
404.4271	5.464349634781118	0.24452034410795181
406.015967	5.4213159529613355	0.23202093745690378
407.60481	5.380172096135398	0.22023263508292715
409.193652	5.340767199076622	0.20911929127889342
410.782471	5.302882636768925	0.19860565884317713
412.37124	5.266364521649956	0.18870887244471285
413.96001	5.231126125002878	0.1793701426065142
415.548779	5.1970959104659205	0.1705887725853433
417.1375	5.164159590605433	0.16234795059967058
418.726221	5.132222083723979	0.15460166896545058
420.314893	5.101390607314285	0.14738489383092704
421.903564	5.0714490976787046	0.14060997397135055
423.492236	5.0424403067798345	0.1343170761547736
425.080859	5.014247135948247	0.12843333828002165
426.669482	4.986969966799683	0.12298113827827552
428.258057	4.960497560945459	0.11790414977843666
429.846582	4.93481375189709	0.1131927569374328
431.435156	4.909867466461698	0.1088281330014135
433.023633	4.885617165342766	0.1047848519608074
434.612158	4.8621224323004535	0.10104923345738887
436.200586	4.839290951536266	0.09758269680441865
437.789063	4.817161741276271	0.09438790744024195
439.377441	4.795597332099926	0.0914217298740875
440.965869	4.774696680311678	0.08869189727842332
442.554199	4.754335657182971	0.08615440233525476
444.142529	4.734658753977129	0.08381848660398507
445.730859	4.715476649833368	0.08164377155173022
447.319141	4.696849953883773	0.07964007888381078
4

Note: Calculate-Module/ConsoleApp1/ConsoleApp1/Si_nm.txt
wavelength	n	k
206.66666666666666	1.0923179252575637	3.0105246137241575
207.35785953177256	1.1013664096762263	3.021292433440216
208.05369127516778	1.110499261342481	3.0326899956049242
208.75420875420875	1.1197682300359184	3.044647908871857
209.45945945945945	1.1291994989397185	3.057121441553428
210.16949152542372	1.1388385881119003	3.070057545026266
210.8843537414966	1.148719746558018	3.0834326741688907
211.6040955631399	1.1588393779919024	3.0971936820264663
212.3287671232877	1.169245158824643	3.111323551390126
213.05841924398624	1.1799031749174362	3.1258073360621967
213.79310344827587	1.1908603099194999	3.1406286437179367
214.53287197231833	1.2021103586868396	3.1557834707822083
215.2777777777778	1.2136608702068374	3.1712730421506152
216.02787456445992	1.2255411445319337	3.1871226987583396
216.7832167832168	1.237803571989013	3.203335399677773
217.5438596491228	1.2504646691555383	3.2199630259998746
218.3098591549296	1.2636197532194606	3.2370101761851804
219.08127208480565	1.2773510833081643	3.2545085327939365
219.8581560283688	1.291790806804101	3.27243387840665
220.6405693950178	1.3070884749694442	3.2907871826354778
221.42857142857144	1.3234255884085098	3.3094796098562704
222.22222222222223	1.3409920119052021	3.3283568883149477
223.02158273381298	1.3599272121923538	3.3472379692010645
223.82671480144404	1.3803949891260554	3.3658119861341516
224.6376811594203	1.402427152731725	3.3837408173084436
225.45454545454547	1.4260133497865397	3.4006343634341856
226.2773722627737	1.4510203270841797	3.4160444946767714
227.1062271062271	1.4771408806520958	3.429598399418458
227.94117647058823	1.5039657117990701	3.4409029138101648
228.78228782287823	1.5309844692492127	3.4497410692807504
229.62962962962962	1.5575797921138592	3.4560027211796944
230.48327137546468	1.5831973666689712	3.4597707874695347
231.34328358208953	1.6069733597095397	3.4611650320110665
232.20973782771537	1.628701497309383	3.460732374416985
233.08270676691728	1.647644449955167	3.4588773082415143
233.9622641509434	1.6635140585941064	3.456237697719912
234.84848484848484	1.6762636041636174	3.453514104596013
235.74144486692015	1.6859610732996133	3.451443863179812
236.64122137404578	1.6926231737494057	3.4505612888794643
237.54789272030652	1.696538028112985	3.451440464622488
238.46153846153845	1.698303046141501	3.4546249053310407
239.3822393822394	1.6982219142394717	3.46038403504628
240.31007751937983	1.6966618574751233	3.4688703432977914
241.24513618677045	1.694245031040182	3.4803112253366577
242.1875	1.6912874636804875	3.494674989867123
243.1372549019608	1.6882165573520103	3.5119901970987155
244.09448818897638	1.6852490211929791	3.53211894808653
245.05928853754943	1.682812293439304	3.555060789206065
246.03174603174602	1.680972277970738	3.580665831839957
247.01195219123508	1.6799981677221016	3.608932507480518
248	1.680008721573109	3.6395644388527746
248.99598393574294	1.681153781467117	3.6727752499902833
250	1.6835943131561553	3.7084349544372146
251.01214574898785	1.6874317704409418	3.746521850983049


Note: README.md
# Calculate-Module
 두께 측정 및 분석을 위한 알고리즘 설계 및 개발 프로젝트입니다. 
효율적인 계산 알고리즘 개발을 위해 다음 요소를 고려합니다. 
 - 병렬 처리
 - 서버 통신
 - 수치 해석
 - 코드 최적화

File: SiO2 2nm_on_Si.dat
wavelength(nm)	AOI	Psi	Delta
210.487	65	37.2608	117.255
213.669	65	37.0855	117.764
216.851	65	36.9362	118.794
220.032	65	36.9435	119.761
223.213	65	36.7713	120.998
226.394	65	36.7637	121.66
229.575	65	36.2368	123.0035
232.756	65	35.8269	123.498
235.937	65	35.4526	123.73
239.117	65	35.5206	123.807
242.298	65	35.7979	124.306
245.478	65	36.1458	124.855
248.659	65	36.4951	125.815
251.839	65	36.8442	126.898
255.019	65	37.0827	128.018
258.199	65	37.24324	129.341
261.379	65	37.4367	130.985
264.559	65	37.5406	132.601
267.739	65	37.6368	134.4664
270.919	65	37.6615	136.492
274.098	65	37.6322	138.585
277.278	65	37.4345	140.807
280.458	65	37.08	142.761
283.637	65	36.7209	144.705
286.817	65	36.3089	146.95
289.996	65	35.5534	148.848
293.175	65	34.7211	150.284
296.355	65	33.9208	151.172
299.534	65	33.1601	151.684
302.713	65	32.5811	151.9429
305.893	65	32.0404	152.2207
309.072	65	31.682	152.471
312.251	65	31.3482	152.564
315.43	65	31.1249	152.933
318.609	65	30.8578	153.089
321.788	65	30.684	153.419
324.967	65	30.5302	153.661
328.146	65	30.4159	153.9146
331.325	65	30.2937	154.311
334.504	65	30.187	154.686
337.682	65	30.1836	154.943
340.861	65	30.1596	155.448
344.04	65	30.086	155.846
347.219	65	30.1473	156.198
350.397	65	30.1722	156.737
353.576	65	30.3925	157.366
356.754	65	30.5374	158.12
359.933	65	30.8718	159.241
363.111	65	31.0131	160.967
366.29	65	31.0364	163.156
369.468	65	30.7633	165.204
372.647	65	30.3379	167.165
375.825	65	29.7523	168.827
379.003	65	29.1651	169.9473
382.181	65	28.4887	170.804
385.359	65	27.9596	171.604
388.538	65	27.3918	172.0329
391.716	65	26.8943	172.533
394.894	65	26.4452	172.755
398.071	65	26.076	173.011
401.249	65	25.7156	173.198
404.4271	65	25.3554	173.354
407.605	65	25.0191	173.56
410.782	65	24.7418	173.595
413.96	65	24.5355	173.721
417.1375	65	24.2471	173.834
420.315	65	24.0125	173.99
423.492	65	23.8041	174.146
426.669	65	23.5757	174.199
429.847	65	23.3658	174.555
433.024	65	23.2107	174.514
436.201	65	23.0681	174.737
439.377	65	22.7724	174.703
442.554	65	22.5543	174.776
445.731	65	22.4124	174.756
448.907	65	22.2568	174.944
452.084	65	22.0817	175.099
455.26	65	21.8783	175.067
458.436	65	21.7669	175.055
461.612	65	21.6269	175.276
464.788	65	21.498	175.302
467.964	65	21.3492	175.489
471.14	65	21.2335	175.468
474.315	65	21.0657	175.438
477.491	65	21.0349	175.464
480.666	65	20.81234	175.49
483.841	65	20.7398	175.498
487.016	65	20.6253	175.6665
490.19	65	20.4367	175.65
493.365	65	20.4237	175.714
496.539	65	20.25865	175.769
499.714	65	20.1997	175.717
502.888	65	20.116	175.75
506.062	65	20.0394	175.83
509.235	65	19.9658	175.866
512.409	65	19.85055	175.908
515.582	65	19.7266	175.895
518.755	65	19.6748	176.067
521.928	65	19.6239	175.921
525.1	65	19.5614	176.07
528.273	65	19.4551	176.16
531.445	65	19.35	176.005
534.617	65	19.2856	176.107
537.789	65	19.2148	176.178
540.96	65	19.1541	176.133
544.131	65	19.06673	176.039
547.302	65	18.9965	176.14
550.473	65	19.015	176.272
553.644	65	18.87904	176.274
556.814	65	18.8315	176.176
559.984	65	18.7597	176.29
563.154	65	18.67182	176.343
566.323	65	18.6771	176.225
569.492	65	18.66972	176.373
572.661	65	18.5682	176.359
575.83	65	18.5726	176.359
578.998	65	18.5577	176.462
582.166	65	18.3911	176.508
585.333	65	18.3409	176.586
588.501	65	18.3201	176.531
591.668	65	18.1676	176.446
594.834	65	18.2904	176.666
598.001	65	18.2809	176.652
601.167	65	18.082	176.367
604.333	65	17.99155	176.5
607.498	65	18.1032	176.749
610.663	65	18.0542	176.708
613.828	65	17.90439	176.712
616.992	65	17.9576	176.644
620.156	65	17.8819	176.926
623.319	65	17.8092	176.629
626.483	65	17.83289	176.832
629.645	65	17.8239	176.804
632.808	65	17.7248	176.76
635.97	65	17.7155	176.955
639.132	65	17.7021	176.654
642.293	65	17.7155	176.9055
645.454	65	17.5146	176.865
648.614	65	17.5863	176.893
651.774	65	17.5082	176.763
654.934	65	17.5541	176.879
658.093	65	17.4585	176.889
661.252	65	17.41873	177.081
664.411	65	17.5047	177.019
667.569	65	17.3998	176.974
670.726	65	17.3369	176.89
673.883	65	17.399	177.035
677.04	65	17.248	177.125
680.196	65	17.3744	177.214
683.352	65	17.1934	177.039
686.508	65	17.2872	177.23
689.663	65	17.09285	177.186
692.817	65	17.0631	177.396
695.971	65	17.1876	177.038
699.125	65	17.1133	177.141
702.278	65	16.9856	177.289
705.43	65	17.0476	177.325
708.582	65	17.0317	177.28
711.734	65	17.0433	177.324
714.885	65	16.9129	177.198
718.036	65	17.0648	177.35
721.186	65	17.1129	177.272
724.336	65	16.9174	176.932
727.485	65	16.9619	177.618
730.634	65	16.8831	177.443
733.782	65	16.8286	177.381
736.93	65	16.95775	177.395
740.077	65	16.7964	177.41
743.224	65	16.87348	177.416
746.37	65	16.7903	177.345
749.516	65	16.7027	177.479
752.661	65	16.6068	177.492
755.806	65	16.6509	177.41
758.95	65	16.6728	177.486
762.094	65	16.7117	177.574
765.237	65	16.59222	177.429
768.38	65	16.68285	177.709
771.522	65	16.7063	177.791
774.664	65	16.5301	177.241
777.805	65	16.4448	177.6
780.946	65	16.6532	177.62
784.086	65	16.6495	177.442
787.225	65	16.3406	177.592
790.364	65	16.5678	177.509
793.503	65	16.5499	177.826
796.641	65	16.6163	177.491
799.779	65	16.4458	177.634
802.916	65	16.3467	177.389
806.0521	65	16.3616	177.862
809.188	65	16.3781	177.396
812.324	65	16.6483	177.834
815.458	65	16.3118	177.688
818.593	65	16.4682	177.617
821.727	65	16.1039	177.531
824.86	65	16.4566	177.972
827.993	65	16.3645	177.788
831.125	65	16.3182	177.604
834.257	65	16.5038	177.66
837.389	65	16.0979	177.909
840.52	65	16.4364	177.544
843.65	65	16.1718	177.6676
846.78	65	16.268	177.853
849.909	65	16.4375	178.053
853.038	65	16.3242	177.578
856.166	65	16.0556	177.663
859.294	65	16.1554	177.891
862.422	65	16.1022	177.754
865.549	65	16.4343	177.92
868.675	65	15.8762	177.876
871.801	65	16.1037	177.816
874.926	65	16.1328	177.801
878.051	65	16.2585	178.198
881.176	65	15.9259	177.705
884.3	65	16.2397	177.709
887.424	65	16.0544	178.46
890.547	65	15.5443	177.6264
893.67	65	16.05	178.01
896.792	65	16.2928	178.223
899.914	65	15.9756	178.0616
903.035	65	15.99763	177.608
906.156	65	15.6498	177.882
909.277	65	15.9718	178.34
912.397	65	15.8209	177.606
915.517	65	16.2284	177.81
918.636	65	16.0015	178.507
921.755	65	16.0235	178.115
924.873	65	16.0387	177.935
927.992	65	15.8653	177.804
931.109	65	16.1241	178.246
934.227	65	15.729	178.08
937.344	65	15.8902	177.969
940.461	65	15.8136	178.217
943.577	65	15.8334	177.969
946.693	65	15.7648	177.6877
949.809	65	15.9148	178.453
952.925	65	15.8442	177.986
956.04	65	15.6991	178.2325
959.155	65	16.048	177.949
962.269	65	15.971	177.914
965.383	65	15.5789	177.878
968.497	65	16.01433	178.001
971.611	65	15.814	178.078
974.725	65	15.7681	177.944
977.838	65	15.9846	178.127
980.951	65	15.5769	178.629
984.064	65	15.6433	178.252
987.177	65	15.8119	178.2534
988.733	65	15.7785	178.387